szo,hangfajl,hangok.thisRepN,hangok.thisTrialN,hangok.thisN,hangok.thisIndex,inst_text.started,inst_text.stopped,space_inst.started,space_inst.stopped,key_resp.keys,key_resp.rt,key_resp.started,key_resp.stopped,text.started,text.stopped,fx_cross.started,fx_cross.stopped,sound_1.started,sound_1.stopped,key_resp_2.keys,key_resp_2.rt,key_resp_2.started,key_resp_2.stopped,text_2.started,text_2.stopped,Résztvevő kódja,date,expName,psychopyVersion,frameRate,
,,,,,,35.52552222867962,None,43.492377511109225,None,space,18.55751621746458,43.492377511109225,None,,,,,,,,,,,,,158228,2022_Apr_04_1423,alszo_teszt,2021.1.2,59.98895503442797,
gáv,alszo_01,0,0,0,0,,,,,,,,,62.077267697430216,None,68.13637409755029,None,69.12537126550451,72.12663426797371,u,3.6804756179917604,69.13700171117671,None,72.12663426797371,None,158228,2022_Apr_04_1423,alszo_teszt,2021.1.2,59.98895503442797,
gyem,alszo_02,0,1,1,1,,,,,,,,,,,72.86115992208943,None,73.87543517760932,76.88004244631156,u,2.9884270906914026,73.8770051447209,None,76.86146408761851,None,158228,2022_Apr_04_1423,alszo_teszt,2021.1.2,59.98895503442797,
Szan,alszo_03,0,2,2,2,,,,,,,,,,,76.90441145829391,None,77.92531304482836,80.92697351519018,u,3.0720076233847067,77.93747251469176,None,80.92697351519018,None,158228,2022_Apr_04_1423,alszo_teszt,2021.1.2,59.98895503442797,
dolk,alszo_04,0,3,3,3,,,,,,,,,,,81.03623084735591,None,82.05852139452472,85.06169367360417,u,3.1576103285187855,82.05975982744712,None,85.04393233219162,None,158228,2022_Apr_04_1423,alszo_teszt,2021.1.2,59.98895503442797,
zomás,alszo_05,0,4,4,4,,,,,,,,,,,85.25254077778663,None,86.27541042133234,89.27893787121866,u,4.2190219179028645,86.2784614074044,None,89.26090750820003,None,158228,2022_Apr_04_1423,alszo_teszt,2021.1.2,59.98895503442797,
galonc,alszo_06,0,5,5,5,,,,,,,,,,,90.5234076869674,None,91.52507639910327,94.52779040811583,u,3.6125272675417364,91.52495774964336,None,94.51026014552917,None,158228,2022_Apr_04_1423,alszo_teszt,2021.1.2,59.98895503442797,
Gabam,alszo_07,0,6,6,6,,,,,,,,,,,95.16645041259471,None,96.19176830924116,99.19433878816199,u,3.6795174030121416,96.19377244310454,None,99.17678520001937,None,158228,2022_Apr_04_1423,alszo_teszt,2021.1.2,59.98895503442797,
ardul,alszo_08,0,7,7,7,,,,,,,,,,,99.90325264341664,None,100.90842952289385,103.91128224146087,u,3.4772616017144173,100.90828972484451,None,103.89349850744475,None,158228,2022_Apr_04_1423,alszo_teszt,2021.1.2,59.98895503442797,
tarembik,alszo_09,0,8,8,8,,,,,,,,,,,104.4157417814713,None,105.4418583458988,108.44692590611521,u,3.680841985042207,105.44032663281541,None,108.42823091952596,None,158228,2022_Apr_04_1423,alszo_teszt,2021.1.2,59.98895503442797,
cselika,alszo_10,0,9,9,9,,,,,,,,,,,109.16150663350709,None,110.15845207091188,113.16072476003319,u,3.563127419212833,110.16609057667665,None,113.14291987754405,None,158228,2022_Apr_04_1423,alszo_teszt,2021.1.2,59.98895503442797,
hübedin,alszo_11,0,10,10,10,,,,,,,,,,,113.76015984558035,None,114.77519458197057,117.77810623648111,u,4.006832218263298,114.77858798753005,None,117.76053523190785,None,158228,2022_Apr_04_1423,alszo_teszt,2021.1.2,59.98895503442797,
vazóga,alszo_12,0,11,11,11,,,,,,,,,,,118.81383076333441,None,119.82593891678843,122.82661629177164,u,4.012432534713298,119.82871932606213,None,122.80861702945549,None,158228,2022_Apr_04_1423,alszo_teszt,2021.1.2,59.98895503442797,
tipebanér,alszo_13,0,12,12,12,,,,,,,,,,,123.8684754462447,None,124.87486898795468,127.8785558292875,u,4.070174543769099,124.87484115280677,None,127.86072264518589,None,158228,2022_Apr_04_1423,alszo_teszt,2021.1.2,59.98895503442797,
limefürék,alszo_14,0,13,13,13,,,,,,,,,,,128.96390630700625,None,129.98814936089332,132.99416518374346,u,3.8980622350936756,129.99128525191918,None,132.97664891637396,None,158228,2022_Apr_04_1423,alszo_teszt,2021.1.2,59.98895503442797,
serkápanta,alszo_15,0,14,14,14,,,,,,,,,,,133.9222794752568,None,134.94152183553672,137.94376046932302,u,4.276819597464055,134.94013442995492,None,137.92608807620127,None,158228,2022_Apr_04_1423,alszo_teszt,2021.1.2,59.98895503442797,
berszidelén,alszo_16,0,15,15,15,,,,,,,,,,,139.26206290198024,None,140.25816550840392,143.2606248020893,u,4.638478686916642,140.25848258077167,None,143.2429359256057,None,158228,2022_Apr_04_1423,alszo_teszt,2021.1.2,59.98895503442797,
hápamarogány,alszo_17,0,16,16,16,,,,,,,,,,,144.92978906829376,None,145.94911384561567,148.95941193413455,u,4.179994800011627,145.9488942741882,None,148.92523902503308,None,158228,2022_Apr_04_1423,alszo_teszt,2021.1.2,59.98895503442797,
gyilonitora,alszo_18,0,17,17,17,,,,,,,,,,,150.14947747590486,None,151.14902915818385,154.15809798857663,u,3.761799789383076,151.1511687360471,None,154.13995628478006,None,158228,2022_Apr_04_1423,alszo_teszt,2021.1.2,59.98895503442797,
tesilbengecsék,alszo_19,0,18,18,18,,,,,,,,,,,154.94629300537053,None,155.97504162837288,158.97604867152404,u,6.3999802198959514,155.9848284200998,None,158.97604867152404,None,158228,2022_Apr_04_1423,alszo_teszt,2021.1.2,59.98895503442797,
fortiklempelesz,alszo_20,0,19,19,19,,,,,,,,,,,162.42523529287428,None,163.45349874384704,166.46043763763737,u,4.712009315378964,163.46476220036857,None,166.44277395273093,None,158228,2022_Apr_04_1423,alszo_teszt,2021.1.2,59.98895503442797,
abalamofálsag,alszo_21,0,20,20,20,,,,,,,,,,,168.2063346679788,None,169.22929916894066,172.24381856550463,u,4.99113534623757,169.23358143458609,None,172.22625409206375,None,158228,2022_Apr_04_1423,alszo_teszt,2021.1.2,59.98895503442797,
sémernyegvőterec,alszo_22,0,21,21,21,,,,,,,,,,,174.25346415978856,None,175.274877043115,178.27689641644247,u,5.445977021474391,175.2747293143766,None,178.2595471602399,None,158228,2022_Apr_04_1423,alszo_teszt,2021.1.2,59.98895503442797,
hulukatánatalm,alszo_23,0,22,22,22,,,,,,,,,,,180.7562520331703,None,181.77849903926256,184.78763800195884,u,6.9075992876896635,181.7809777710354,None,184.7685443033697,None,158228,2022_Apr_04_1423,alszo_teszt,2021.1.2,59.98895503442797,
,,,,,,,,,,,,,,,,188.7139440944884,None,,,,,,,,,,,,,,
