szo,hangfajl,hangok.thisRepN,hangok.thisTrialN,hangok.thisN,hangok.thisIndex,inst_text.started,inst_text.stopped,space_inst.started,space_inst.stopped,key_resp.keys,key_resp.rt,key_resp.started,key_resp.stopped,text.started,text.stopped,fx_cross.started,fx_cross.stopped,sound_1.started,sound_1.stopped,key_resp_2.keys,key_resp_2.rt,key_resp_2.started,key_resp_2.stopped,text_2.started,text_2.stopped,Résztvevő kódja,date,expName,psychopyVersion,frameRate,
,,,,,,16.00592003244492,None,23.957051696329472,None,space,14.994718777466005,23.957051696329472,None,,,,,,,,,,,,,369798,2022_Mar_29_1358,alszo_teszt,2021.1.2,59.80963470847475,
gáv,alszo_01,0,0,0,0,,,,,,,,,38.97431884638536,None,45.035532323968255,None,46.03700681169139,49.041294675485005,u,4.489534278341125,46.046012973999495,None,49.02401197504241,None,369798,2022_Mar_29_1358,alszo_teszt,2021.1.2,59.80963470847475,
gyem,alszo_02,0,1,1,1,,,,,,,,,,,50.57860845182222,None,51.588945727282315,54.58989181284596,u,3.5057651505867398,51.589843917652615,None,54.572165926364505,None,369798,2022_Mar_29_1358,alszo_teszt,2021.1.2,59.80963470847475,
Szan,alszo_03,0,2,2,2,,,,,,,,,,,55.12452408039735,None,56.13804607517595,59.15341638898917,u,3.654669128189198,56.145129587597694,None,59.13418802408705,None,369798,2022_Mar_29_1358,alszo_teszt,2021.1.2,59.80963470847475,
dolk,alszo_04,0,3,3,3,,,,,,,,,,,59.82885119336788,None,60.83806977396571,63.83937476246774,u,3.6207226327178432,60.85072219108679,None,63.83937476246774,None,369798,2022_Mar_29_1358,alszo_teszt,2021.1.2,59.80963470847475,
zomás,alszo_05,0,4,4,4,,,,,,,,,,,64.49896434420589,None,65.52121321633678,68.526073334383,u,3.752130869571374,65.51931295900886,None,68.49189638217103,None,369798,2022_Mar_29_1358,alszo_teszt,2021.1.2,59.80963470847475,
galonc,alszo_06,0,5,5,5,,,,,,,,,,,69.3016868438126,None,70.30461498174091,73.33029115923182,u,3.8945948097780274,70.30483455320973,None,73.28557850861853,None,369798,2022_Mar_29_1358,alszo_teszt,2021.1.2,59.80963470847475,
Gabam,alszo_07,0,6,6,6,,,,,,,,,,,74.23472283300725,None,75.2381047312364,78.24186139379981,u,4.033197588819348,75.23815977960749,None,78.22408014794019,None,369798,2022_Mar_29_1358,alszo_teszt,2021.1.2,59.80963470847475,
ardul,alszo_08,0,7,7,7,,,,,,,,,,,79.2991163647921,None,80.33785175753628,83.33942607874633,u,3.8469770358096866,80.35231486175417,None,83.33942607874633,None,369798,2022_Mar_29_1358,alszo_teszt,2021.1.2,59.80963470847475,
tarembik,alszo_09,0,8,8,8,,,,,,,,,,,84.24163000403678,None,85.27109923199788,88.27419251503852,u,5.61477834166908,85.27253266669868,None,88.25657672529996,None,369798,2022_Mar_29_1358,alszo_teszt,2021.1.2,59.80963470847475,
cselika,alszo_10,0,9,9,9,,,,,,,,,,,90.9192673652733,None,91.93446942389602,94.94079065633196,u,3.7867335913870193,91.93245844780995,None,94.90525771034845,None,369798,2022_Mar_29_1358,alszo_teszt,2021.1.2,59.80963470847475,
hübedin,alszo_11,0,10,10,10,,,,,,,,,,,95.7452243205571,None,96.77103982951832,99.77380966450346,u,5.023564745903968,96.77572142911777,None,99.75670112839816,None,369798,2022_Mar_29_1358,alszo_teszt,2021.1.2,59.80963470847475,
vazóga,alszo_12,0,11,11,11,,,,,,,,,,,101.8309971468152,None,102.83772828746069,105.84021137330456,u,4.673511221470108,102.85388762792536,None,105.84021137330456,None,369798,2022_Mar_29_1358,alszo_teszt,2021.1.2,59.80963470847475,
tipebanér,alszo_13,0,12,12,12,,,,,,,,,,,107.56959886842924,None,108.58765846622174,111.5910266801111,u,6.492652442001599,108.58640977012146,None,111.57336486122495,None,369798,2022_Mar_29_1358,alszo_teszt,2021.1.2,59.80963470847475,
limefürék,alszo_14,0,13,13,13,,,,,,,,,,,115.11977810219378,None,116.12097890310079,119.12272832167218,u,4.305274318161537,116.13381232672964,None,119.12272832167218,None,369798,2022_Mar_29_1358,alszo_teszt,2021.1.2,59.80963470847475,
serkápanta,alszo_15,0,14,14,14,,,,,,,,,,,120.46552821244586,None,121.470790774515,124.4859427608908,u,4.681968144098391,121.48530799408127,None,124.4859427608908,None,369798,2022_Mar_29_1358,alszo_teszt,2021.1.2,59.80963470847475,
berszidelén,alszo_16,0,15,15,15,,,,,,,,,,,126.20697161183489,None,127.20442508041097,130.20673617897137,u,4.06626579841577,127.20474324133556,None,130.18910141775996,None,369798,2022_Mar_29_1358,alszo_teszt,2021.1.2,59.80963470847475,
hápamarogány,alszo_17,0,16,16,16,,,,,,,,,,,131.30745852556174,None,132.32089561522645,135.32350465920717,u,4.446155539949359,132.3287093738354,None,135.30568111629418,None,369798,2022_Mar_29_1358,alszo_teszt,2021.1.2,59.80963470847475,
gyilonitora,alszo_18,0,17,17,17,,,,,,,,,,,136.81461605782806,None,137.82074975259357,140.82411267935095,u,3.660228391648161,137.8346626841094,None,140.82411267935095,None,369798,2022_Mar_29_1358,alszo_teszt,2021.1.2,59.80963470847475,
tesilbengecsék,alszo_19,0,18,18,18,,,,,,,,,,,141.52460009069,None,142.57067277817598,145.57388859826915,u,4.880161251296158,142.5827781326725,None,145.55681769410148,None,369798,2022_Mar_29_1358,alszo_teszt,2021.1.2,59.80963470847475,
fortiklempelesz,alszo_20,0,19,19,19,,,,,,,,,,,147.48777304147552,None,148.50429843805688,151.50708226839106,u,5.5183995292591135,148.5043761899933,None,151.4732340513674,None,369798,2022_Mar_29_1358,alszo_teszt,2021.1.2,59.80963470847475,
abalamofálsag,alszo_21,0,20,20,20,,,,,,,,,,,154.06479410976226,None,155.07253384852802,158.0894330764204,u,8.085580934478457,155.0895154934733,None,158.07165836172317,None,369798,2022_Mar_29_1358,alszo_teszt,2021.1.2,59.80963470847475,
sémernyegvőterec,alszo_22,0,21,21,21,,,,,,,,,,,163.2089095011006,None,164.22057260258126,167.22278853277112,u,5.931685282554099,164.23509386524802,None,167.22278853277112,None,369798,2022_Mar_29_1358,alszo_teszt,2021.1.2,59.80963470847475,
hulukatánatalm,alszo_23,0,22,22,22,,,,,,,,,,,170.19879832827155,None,171.19935378810524,174.2074692242286,u,7.771032365331848,171.2118939314305,None,174.2074692242286,None,369798,2022_Mar_29_1358,alszo_teszt,2021.1.2,59.80963470847475,
,,,,,,,,,,,,,,,,179.01315345059993,None,,,,,,,,,,,,,,
