szo,hangfajl,hangok.thisRepN,hangok.thisTrialN,hangok.thisN,hangok.thisIndex,inst_text.started,inst_text.stopped,space_inst.started,space_inst.stopped,key_resp.keys,key_resp.rt,key_resp.started,key_resp.stopped,text.started,text.stopped,fx_cross.started,fx_cross.stopped,sound_1.started,sound_1.stopped,key_resp_2.keys,key_resp_2.rt,key_resp_2.started,key_resp_2.stopped,text_2.started,text_2.stopped,Résztvevő kódja,date,expName,psychopyVersion,frameRate,
,,,,,,11.511940475553274,None,19.48553477274254,None,space,31.349762359634042,19.48553477274254,None,,,,,,,,,,,,,417089,2022_Mar_09_1733,alszo_teszt,2021.1.2,59.98906701753326,
gáv,alszo_01,0,0,0,0,,,,,,,,,50.87563561974093,None,56.911960255820304,None,57.92222894662991,60.92870764946565,u,5.569691288750619,57.937927439343184,None,60.92870764946565,None,417089,2022_Mar_09_1733,alszo_teszt,2021.1.2,59.98906701753326,
gyem,alszo_02,0,1,1,1,,,,,,,,,,,63.53250298695639,None,64.54169459985569,67.54189600795507,u,4.597748747561127,64.54150507273152,None,67.52443485427648,None,417089,2022_Mar_09_1733,alszo_teszt,2021.1.2,59.98906701753326,
Szan,alszo_03,0,2,2,2,,,,,,,,,,,69.1750780469738,None,70.20488342512398,73.20811378862709,u,4.550111869350076,70.20494525320828,None,73.18987667327747,None,417089,2022_Mar_09_1733,alszo_teszt,2021.1.2,59.98906701753326,
dolk,alszo_04,0,3,3,3,,,,,,,,,,,74.79886955302209,None,75.82131701325997,78.82313584210351,u,4.417756174691021,75.82532408414409,None,78.80519387219101,None,417089,2022_Mar_09_1733,alszo_teszt,2021.1.2,59.98906701753326,
zomás,alszo_05,0,4,4,4,,,,,,,,,,,80.27303143683821,None,81.28818765878677,84.28945040749386,u,4.580058071296662,81.29530572844669,None,84.28945040749386,None,417089,2022_Mar_09_1733,alszo_teszt,2021.1.2,59.98906701753326,
galonc,alszo_06,0,5,5,5,,,,,,,,,,,85.9143948154524,None,86.93806142117828,89.93980996217579,u,5.066997349727899,86.93626044411212,None,89.92185741802678,None,417089,2022_Mar_09_1733,alszo_teszt,2021.1.2,59.98906701753326,
Gabam,alszo_07,0,6,6,6,,,,,,,,,,,92.03696499858052,None,93.07264062631874,96.08141250442713,u,4.144202868454158,93.07468543201685,None,96.0616082274355,None,417089,2022_Mar_09_1733,alszo_teszt,2021.1.2,59.98906701753326,
ardul,alszo_08,0,7,7,7,,,,,,,,,,,97.25204191356897,None,98.25537260733545,101.27703502494842,u,4.051611231639981,98.25514327129349,None,101.23221679870039,None,417089,2022_Mar_09_1733,alszo_teszt,2021.1.2,59.98906701753326,
tarembik,alszo_09,0,8,8,8,,,,,,,,,,,102.35315575264394,None,103.38013799944892,106.39139805547893,u,4.5759994350373745,103.37868472794071,None,106.35636036423966,None,417089,2022_Mar_09_1733,alszo_teszt,2021.1.2,59.98906701753326,
cselika,alszo_10,0,9,9,9,,,,,,,,,,,107.98110479488969,None,108.98762672739103,111.98973864875734,u,4.031389583833516,108.99567669723183,None,111.97213598666713,None,417089,2022_Mar_09_1733,alszo_teszt,2021.1.2,59.98906701753326,
hübedin,alszo_11,0,10,10,10,,,,,,,,,,,113.06421632831916,None,114.08792740842327,117.09025224484503,u,4.242470375262201,114.09665307123214,None,117.07222101604566,None,417089,2022_Mar_09_1733,alszo_teszt,2021.1.2,59.98906701753326,
vazóga,alszo_12,0,11,11,11,,,,,,,,,,,118.37364300014451,None,119.40439371429383,122.40705039491877,u,4.171767693012953,119.41484484169632,None,122.38913112832233,None,417089,2022_Mar_09_1733,alszo_teszt,2021.1.2,59.98906701753326,
tipebanér,alszo_13,0,12,12,12,,,,,,,,,,,123.61417113943025,None,124.6205496976152,127.62264606868848,u,5.429528085049242,124.62091282894835,None,127.60496285650879,None,417089,2022_Mar_09_1733,alszo_teszt,2021.1.2,59.98906701753326,
limefürék,alszo_14,0,13,13,13,,,,,,,,,,,130.09446171903983,None,131.12183396834882,134.13570616813377,u,4.348476969636977,131.12643817206845,None,134.11616624658927,None,417089,2022_Mar_09_1733,alszo_teszt,2021.1.2,59.98906701753326,
serkápanta,alszo_15,0,14,14,14,,,,,,,,,,,135.51655021542683,None,136.537679940369,139.53983901022002,u,5.008433876559138,136.5460488786921,None,139.5219318731688,None,417089,2022_Mar_09_1733,alszo_teszt,2021.1.2,59.98906701753326,
berszidelén,alszo_16,0,15,15,15,,,,,,,,,,,141.58679229672998,None,142.60714792637157,145.62059435807168,u,5.148282652720809,142.6139248223044,None,145.60048684943467,None,417089,2022_Mar_09_1733,alszo_teszt,2021.1.2,59.98906701753326,
hápamarogány,alszo_17,0,16,16,16,,,,,,,,,,,147.79847053159028,None,148.82003784310075,151.8224590914324,u,4.966426216997206,148.82809608615935,None,151.80373182985932,None,417089,2022_Mar_09_1733,alszo_teszt,2021.1.2,59.98906701753326,
gyilonitora,alszo_18,0,17,17,17,,,,,,,,,,,153.8230238794349,None,154.82015870017932,157.82241181842983,u,4.878047476056963,154.82017723610625,None,157.80457932315767,None,417089,2022_Mar_09_1733,alszo_teszt,2021.1.2,59.98906701753326,
tesilbengecsék,alszo_19,0,18,18,18,,,,,,,,,,,159.7245498644188,None,160.73705742945896,163.73980100546032,u,7.012711150106043,160.74932962516323,None,163.72164972824976,None,417089,2022_Mar_09_1733,alszo_teszt,2021.1.2,59.98906701753326,
fortiklempelesz,alszo_20,0,19,19,19,,,,,,,,,,,167.78841879870743,None,168.82045707982036,171.82295981235802,u,6.571693237870932,168.8223962681368,None,171.8049867413938,None,417089,2022_Mar_09_1733,alszo_teszt,2021.1.2,59.98906701753326,
abalamofálsag,alszo_21,0,20,20,20,,,,,,,,,,,175.42027532774955,None,176.43979901485147,179.45682295551524,u,7.810895556118339,176.4469559607096,None,179.43875067401677,None,417089,2022_Mar_09_1733,alszo_teszt,2021.1.2,59.98906701753326,
sémernyegvőterec,alszo_22,0,21,21,21,,,,,,,,,,,184.28632603539154,None,185.30349415903913,188.30542899295688,u,8.258329845033586,185.31186371902004,None,188.30542899295688,None,417089,2022_Mar_09_1733,alszo_teszt,2021.1.2,59.98906701753326,
hulukatánatalm,alszo_23,0,22,22,22,,,,,,,,,,,193.60298329917714,None,194.614772750251,197.62063261214644,u,8.024236121214926,194.61759096756577,None,197.60356270475313,None,417089,2022_Mar_09_1733,alszo_teszt,2021.1.2,59.98906701753326,
,,,,,,,,,,,,,,,,202.68645311286673,None,,,,,,,,,,,,,,
