szo,hangfajl,hangok.thisRepN,hangok.thisTrialN,hangok.thisN,hangok.thisIndex,inst_text.started,inst_text.stopped,space_inst.started,space_inst.stopped,key_resp.keys,key_resp.rt,key_resp.started,key_resp.stopped,text.started,text.stopped,fx_cross.started,fx_cross.stopped,sound_1.started,sound_1.stopped,key_resp_2.keys,key_resp_2.rt,key_resp_2.started,key_resp_2.stopped,text_2.started,text_2.stopped,Résztvevő kódja,date,expName,psychopyVersion,frameRate,
,,,,,,20.998953151982278,None,28.962159207090735,None,space,34.538432327564806,28.962159207090735,None,,,,,,,,,,,,,470857,2022_Mar_22_1337,alszo_teszt,2021.1.2,59.96031688516293,
gáv,alszo_01,0,0,0,0,,,,,,,,,63.52531158225611,None,69.55306767579168,None,70.5247142626904,73.53344658110291,u,4.670796108432114,70.52532153436914,None,73.49907009024173,None,470857,2022_Mar_22_1337,alszo_teszt,2021.1.2,59.96031688516293,
gyem,alszo_02,0,1,1,1,,,,,,,,,,,75.23415903514251,None,76.22912147501484,79.23254988715053,u,4.1348748481832445,76.2291011349298,None,79.21435009269044,None,470857,2022_Mar_22_1337,alszo_teszt,2021.1.2,59.96031688516293,
Szan,alszo_03,0,2,2,2,,,,,,,,,,,80.4060604609549,None,81.41212801309302,84.41526656690985,u,3.7839088924229145,81.41209274483845,None,84.3967772256583,None,470857,2022_Mar_22_1337,alszo_teszt,2021.1.2,59.96031688516293,
dolk,alszo_04,0,3,3,3,,,,,,,,,,,85.2282660822384,None,86.22374292695895,89.2326133325696,u,4.140008633956313,86.22389457374811,None,89.19760612025857,None,470857,2022_Mar_22_1337,alszo_teszt,2021.1.2,59.96031688516293,
zomás,alszo_05,0,4,4,4,,,,,,,,,,,90.3894225419499,None,91.3936511115171,94.3986883610487,u,4.346017529722303,91.39422666048631,None,94.38086208561435,None,470857,2022_Mar_22_1337,alszo_teszt,2021.1.2,59.96031688516293,
galonc,alszo_06,0,5,5,5,,,,,,,,,,,95.77234566770494,None,96.77195174666122,99.78236536681652,u,4.135788273997605,96.77203683834523,None,99.74730124045163,None,470857,2022_Mar_22_1337,alszo_teszt,2021.1.2,59.96031688516293,
Gabam,alszo_07,0,6,6,6,,,,,,,,,,,100.93593886354938,None,101.94548346940428,104.94811850367114,u,4.306165145710111,101.94559561833739,None,104.93067165603861,None,470857,2022_Mar_22_1337,alszo_teszt,2021.1.2,59.96031688516293,
ardul,alszo_08,0,7,7,7,,,,,,,,,,,106.2814317252487,None,107.28865000139922,110.2981704105623,u,4.019859325606376,107.28814915660769,None,110.26329817529768,None,470857,2022_Mar_22_1337,alszo_teszt,2021.1.2,59.96031688516293,
tarembik,alszo_09,0,8,8,8,,,,,,,,,,,111.33772236201912,None,112.34316479088739,115.36041900049895,u,4.164284252561629,112.34327071951702,None,115.32173569034785,None,470857,2022_Mar_22_1337,alszo_teszt,2021.1.2,59.96031688516293,
cselika,alszo_10,0,9,9,9,,,,,,,,,,,116.5453979424201,None,117.54947753995657,120.56534217251465,u,3.8055496639572084,117.54995170095935,None,120.53016732772812,None,470857,2022_Mar_22_1337,alszo_teszt,2021.1.2,59.96031688516293,
hübedin,alszo_11,0,10,10,10,,,,,,,,,,,121.39701576763764,None,122.39525746088475,125.39791737543419,u,3.6484387782402337,122.395123292692,None,125.38054796867073,None,470857,2022_Mar_22_1337,alszo_teszt,2021.1.2,59.96031688516293,
vazóga,alszo_12,0,11,11,11,,,,,,,,,,,126.07194950757548,None,127.078424166888,130.082121910993,u,4.037667873315513,127.07819203194231,None,130.06414604140446,None,470857,2022_Mar_22_1337,alszo_teszt,2021.1.2,59.96031688516293,
tipebanér,alszo_13,0,12,12,12,,,,,,,,,,,131.13961023418233,None,132.1451148642227,135.14797817729414,u,4.234455113299191,132.14494088711217,None,135.13012235611677,None,470857,2022_Mar_22_1337,alszo_teszt,2021.1.2,59.96031688516293,
limefürék,alszo_14,0,13,13,13,,,,,,,,,,,136.40557031473145,None,137.4116860725917,140.41488154092804,u,4.231578613165766,137.41176027897745,None,140.39702851884067,None,470857,2022_Mar_22_1337,alszo_teszt,2021.1.2,59.96031688516293,
serkápanta,alszo_15,0,14,14,14,,,,,,,,,,,141.66424071183428,None,142.6784056313336,145.68124530790374,u,4.83752238471061,142.67827985994518,None,145.6632772134617,None,470857,2022_Mar_22_1337,alszo_teszt,2021.1.2,59.96031688516293,
berszidelén,alszo_16,0,15,15,15,,,,,,,,,,,147.55004375893623,None,148.55985987279564,151.56447010999545,u,4.459151151124388,148.56020496599376,None,151.54614964546636,None,470857,2022_Mar_22_1337,alszo_teszt,2021.1.2,59.96031688516293,
hápamarogány,alszo_17,0,16,16,16,,,,,,,,,,,153.048920402769,None,154.05265851551667,157.06469310214743,u,5.06279440689832,154.05273769795895,None,157.02951576933265,None,470857,2022_Mar_22_1337,alszo_teszt,2021.1.2,59.96031688516293,
gyilonitora,alszo_18,0,17,17,17,,,,,,,,,,,159.15311134094372,None,160.1524695479311,163.1652415310964,u,4.112547374330461,160.15451988996938,None,163.12981632584706,None,470857,2022_Mar_22_1337,alszo_teszt,2021.1.2,59.96031688516293,
tesilbengecsék,alszo_19,0,18,18,18,,,,,,,,,,,164.3109916569665,None,165.31142625771463,168.3220373671502,u,5.1961913513951,165.31127280695364,None,168.29731420939788,None,470857,2022_Mar_22_1337,alszo_teszt,2021.1.2,59.96031688516293,
fortiklempelesz,alszo_20,0,19,19,19,,,,,,,,,,,170.53857228066772,None,171.53763129934669,174.54895430291072,u,5.449686287436634,171.5372396176681,None,174.51324919145554,None,470857,2022_Mar_22_1337,alszo_teszt,2021.1.2,59.96031688516293,
abalamofálsag,alszo_21,0,20,20,20,,,,,,,,,,,177.02804253110662,None,178.0313228419982,181.0559768313542,u,5.371548682451248,178.03125709481537,None,181.01309773139656,None,470857,2022_Mar_22_1337,alszo_teszt,2021.1.2,59.96031688516293,
sémernyegvőterec,alszo_22,0,21,21,21,,,,,,,,,,,183.43927751947194,None,184.44371228665113,187.4597641453147,u,5.646592953708023,184.4442561129108,None,187.4211340174079,None,470857,2022_Mar_22_1337,alszo_teszt,2021.1.2,59.96031688516293,
hulukatánatalm,alszo_23,0,22,22,22,,,,,,,,,,,190.12796614784747,None,191.13727625412866,194.14937801798806,u,5.78588098520413,191.1367695000954,None,194.11361288279295,None,470857,2022_Mar_22_1337,alszo_teszt,2021.1.2,59.96031688516293,
innécsésziderszil,alszo_24,0,23,23,23,,,,,,,,,,,196.96101190382615,None,197.96097501832992,200.96395091572776,u,6.241886304691434,197.96073013171554,None,200.9459946397692,None,470857,2022_Mar_22_1337,alszo_teszt,2021.1.2,59.96031688516293,
dögeliztetmereni,alszo_25,0,24,24,24,,,,,,,,,,,204.244283543434,None,205.25550665147603,208.26444921037182,u,6.466895215213299,205.25580291636288,None,208.22989544598386,None,470857,2022_Mar_22_1337,alszo_teszt,2021.1.2,59.96031688516293,
kusztenirselemenég,alszo_26,0,25,25,25,,,,,,,,,,,211.75217968970537,None,212.75341077847406,215.76421066839248,u,5.94457365013659,212.75399410212412,None,215.72904359875247,None,470857,2022_Mar_22_1337,alszo_teszt,2021.1.2,59.96031688516293,
intogszocolarásu,alszo_27,0,26,26,26,,,,,,,,,,,218.7430217899382,None,219.74845333350822,222.7643002383411,u,9.15765701327473,219.74881833046675,None,222.7291397000663,None,470857,2022_Mar_22_1337,alszo_teszt,2021.1.2,59.96031688516293,
töminégeveltemérg,alszo_28,0,27,27,27,,,,,,,,,,,228.93381531070918,None,229.94798582838848,232.96731973905116,u,6.894233191385865,229.94800996221602,None,232.9234469733201,None,470857,2022_Mar_22_1337,alszo_teszt,2021.1.2,59.96031688516293,
igyótanumazálubirc,alszo_29,0,28,28,28,,,,,,,,,,,236.87143454281613,None,237.8936941549182,240.89673834946007,u,6.844661851879209,237.90142708504573,None,240.87874972866848,None,470857,2022_Mar_22_1337,alszo_teszt,2021.1.2,59.96031688516293,
polankilimapszilógis,alszo_30,0,29,29,29,,,,,,,,,,,244.785824382212,None,245.80375602655113,248.81390361161903,u,7.005869938060641,245.80424747942016,None,248.7787679536268,None,470857,2022_Mar_22_1337,alszo_teszt,2021.1.2,59.96031688516293,
elüsekéketésenim,alszo_31,0,30,30,30,,,,,,,,,,,252.8331536753103,None,253.86029982287437,256.8644832344726,u,7.319914124906063,253.8580721449107,None,256.8298112875782,None,470857,2022_Mar_22_1337,alszo_teszt,2021.1.2,59.96031688516293,
,,,,,,,,,,,,,,,,261.20222892193124,None,,,,,,,,,,,,,,
