szo,hangfajl,hangok.thisRepN,hangok.thisTrialN,hangok.thisN,hangok.thisIndex,inst_text.started,inst_text.stopped,space_inst.started,space_inst.stopped,key_resp.keys,key_resp.rt,key_resp.started,key_resp.stopped,text.started,text.stopped,fx_cross.started,fx_cross.stopped,sound_1.started,sound_1.stopped,key_resp_2.keys,key_resp_2.rt,key_resp_2.started,key_resp_2.stopped,text_2.started,text_2.stopped,Résztvevő kódja,date,expName,psychopyVersion,frameRate,
,,,,,,8.548362767789513,None,16.514280489180237,None,space,43.69596151728183,16.514280489180237,None,,,,,,,,,,,,,815115,2022_Mar_26_1204,alszo_teszt,2021.1.2,59.37361046895194,
gáv,alszo_01,0,0,0,0,,,,,,,,,60.2447643596679,None,66.28471750952303,None,67.26371993091888,70.27375577157363,u,21.841515709180385,67.26449803821743,None,70.23879303317517,None,815115,2022_Mar_26_1204,alszo_teszt,2021.1.2,59.37361046895194,
gyem,alszo_02,0,1,1,1,,,,,,,,,,,89.14397645555437,None,90.15330979428253,93.15560996765271,u,4.520873828791082,90.15325533691794,None,93.13770562969148,None,815115,2022_Mar_26_1204,alszo_teszt,2021.1.2,59.37361046895194,
Szan,alszo_03,0,2,2,2,,,,,,,,,,,94.70903467899188,None,95.72011898471973,98.72222913336009,u,3.3219176293350756,95.71988756489009,None,98.70433630235493,None,815115,2022_Mar_26_1204,alszo_teszt,2021.1.2,59.37361046895194,
dolk,alszo_04,0,3,3,3,,,,,,,,,,,99.06814371980727,None,100.07957790805958,103.08510850695893,u,3.9057774445973337,100.07967926515266,None,103.0655766716227,None,815115,2022_Mar_26_1204,alszo_teszt,2021.1.2,59.37361046895194,
zomás,alszo_05,0,4,4,4,,,,,,,,,,,104.0297673731111,None,105.0368424930144,108.03896383801475,u,3.636753327678889,105.03671494917944,None,108.02162770880386,None,815115,2022_Mar_26_1204,alszo_teszt,2021.1.2,59.37361046895194,
galonc,alszo_06,0,5,5,5,,,,,,,,,,,108.69472837587819,None,109.6944391710218,112.70526030287147,u,4.4978229543194175,109.69554756721482,None,112.66940155485645,None,815115,2022_Mar_26_1204,alszo_teszt,2021.1.2,59.37361046895194,
Gabam,alszo_07,0,6,6,6,,,,,,,,,,,114.23149059852585,None,115.23958737510256,118.25608251104131,u,3.913886319845915,115.23952887486666,None,118.22068840684369,None,815115,2022_Mar_26_1204,alszo_teszt,2021.1.2,59.37361046895194,
ardul,alszo_08,0,7,7,7,,,,,,,,,,,119.17737638577819,None,120.18639467484317,123.18984215147793,u,3.623124085832387,120.18625437980518,None,123.17228738497943,None,815115,2022_Mar_26_1204,alszo_teszt,2021.1.2,59.37361046895194,
tarembik,alszo_09,0,8,8,8,,,,,,,,,,,123.85094294091687,None,124.85295829470269,127.85530729638413,u,3.8685331624001265,124.85298532107845,None,127.8376340358518,None,815115,2022_Mar_26_1204,alszo_teszt,2021.1.2,59.37361046895194,
cselika,alszo_10,0,9,9,9,,,,,,,,,,,128.74320994876325,None,129.7531565922778,132.75546920625493,u,3.2562681823037565,129.75299670360982,None,132.73804164119065,None,815115,2022_Mar_26_1204,alszo_teszt,2021.1.2,59.37361046895194,
hübedin,alszo_11,0,10,10,10,,,,,,,,,,,133.05475426418707,None,134.05284595876,137.05521330982447,u,3.1163093098439276,134.0528313103132,None,137.03748873388395,None,815115,2022_Mar_26_1204,alszo_teszt,2021.1.2,59.37361046895194,
vazóga,alszo_12,0,11,11,11,,,,,,,,,,,137.200049076695,None,138.20068014007992,141.20581793785095,u,7.896328132133931,138.20098862750456,None,141.17146477242932,None,815115,2022_Mar_26_1204,alszo_teszt,2021.1.2,59.37361046895194,
tipebanér,alszo_13,0,12,12,12,,,,,,,,,,,146.13181267678738,None,147.1381068594288,150.1387092480436,u,3.886567811947316,147.13848750013858,None,150.12132926704362,None,815115,2022_Mar_26_1204,alszo_teszt,2021.1.2,59.37361046895194,
limefürék,alszo_14,0,13,13,13,,,,,,,,,,,151.04744778666645,None,152.05298622292466,155.0542143569328,u,3.659969969186932,152.05306207761168,None,155.0359641793184,None,815115,2022_Mar_26_1204,alszo_teszt,2021.1.2,59.37361046895194,
serkápanta,alszo_15,0,14,14,14,,,,,,,,,,,155.7423730297014,None,156.752587761404,159.75522288912907,u,4.304594251327217,156.75264962064102,None,159.7377107301727,None,815115,2022_Mar_26_1204,alszo_teszt,2021.1.2,59.37361046895194,
berszidelén,alszo_16,0,15,15,15,,,,,,,,,,,161.0921506290324,None,162.10254543335176,165.1040621814318,u,4.52192845242098,162.10292327497154,None,165.0858356403187,None,815115,2022_Mar_26_1204,alszo_teszt,2021.1.2,59.37361046895194,
hápamarogány,alszo_17,0,16,16,16,,,,,,,,,,,166.65972240781412,None,167.6695365627762,170.67224197788164,u,4.07554847560823,167.6691328450106,None,170.6544738607481,None,815115,2022_Mar_26_1204,alszo_teszt,2021.1.2,59.37361046895194,
gyilonitora,alszo_18,0,17,17,17,,,,,,,,,,,171.7803826997988,None,172.78588350410573,175.78867506841198,u,3.5671889293007553,172.7858436643146,None,175.7713249437511,None,815115,2022_Mar_26_1204,alszo_teszt,2021.1.2,59.37361046895194,
tesilbengecsék,alszo_19,0,18,18,18,,,,,,,,,,,176.38841861207038,None,177.40233649886213,180.40456140926108,u,5.046296129468828,177.40226431423798,None,180.38695812551305,None,815115,2022_Mar_26_1204,alszo_teszt,2021.1.2,59.37361046895194,
fortiklempelesz,alszo_20,0,19,19,19,,,,,,,,,,,182.4831194956787,None,183.4869498835411,186.48889457667246,u,5.201738464646041,183.48680305760354,None,186.47163308924064,None,815115,2022_Mar_26_1204,alszo_teszt,2021.1.2,59.37361046895194,
abalamofálsag,alszo_21,0,20,20,20,,,,,,,,,,,188.71914457017556,None,189.73081885525025,192.73608758673072,u,4.686350481119007,189.7301492271945,None,192.71730776503682,None,815115,2022_Mar_26_1204,alszo_teszt,2021.1.2,59.37361046895194,
sémernyegvőterec,alszo_22,0,21,21,21,,,,,,,,,,,194.4464082783088,None,195.45999743104912,198.48009184654802,u,6.668517985381186,195.45993208838627,None,198.43426751391962,None,815115,2022_Mar_26_1204,alszo_teszt,2021.1.2,59.37361046895194,
hulukatánatalm,alszo_23,0,22,22,22,,,,,,,,,,,202.158394720871,None,203.16890895147807,206.17122218711302,u,10.07958907354623,203.168708010111,None,206.15351596055552,None,815115,2022_Mar_26_1204,alszo_teszt,2021.1.2,59.37361046895194,
,,,,,,,,,,,,,,,,213.2782911802642,None,,,,,,,,,,,,,,
