szo,hangfajl,hangok.thisRepN,hangok.thisTrialN,hangok.thisN,hangok.thisIndex,inst_text.started,inst_text.stopped,space_inst.started,space_inst.stopped,key_resp.keys,key_resp.rt,key_resp.started,key_resp.stopped,text.started,text.stopped,fx_cross.started,fx_cross.stopped,sound_1.started,sound_1.stopped,key_resp_2.keys,key_resp_2.rt,key_resp_2.started,key_resp_2.stopped,text_2.started,text_2.stopped,Résztvevő kódja,date,expName,psychopyVersion,frameRate,
,,,,,,12.953605281654745,None,20.918141822796315,None,space,13.340302472468466,20.918141822796315,None,,,,,,,,,,,,,929249,2022_Mar_25_1613,alszo_teszt,2021.1.2,59.79740018750101,
gáv,alszo_01,0,0,0,0,,,,,,,,,34.30183002492413,None,40.3178138975054,None,41.30491860033944,44.32046149671078,u,4.761382685508579,41.30497025884688,None,44.28552892617881,None,929249,2022_Mar_25_1613,alszo_teszt,2021.1.2,59.79740018750101,
gyem,alszo_02,0,1,1,1,,,,,,,,,,,46.08935343613848,None,47.101097635552286,50.103543422650546,u,4.501470750197768,47.10079474654049,None,50.085806406103075,None,929249,2022_Mar_25_1613,alszo_teszt,2021.1.2,59.79740018750101,
Szan,alszo_03,0,2,2,2,,,,,,,,,,,51.63225523941219,None,52.63405002756044,55.63652691524476,u,3.896449113730341,52.633727544918656,None,55.619061407167464,None,929249,2022_Mar_25_1613,alszo_teszt,2021.1.2,59.79740018750101,
dolk,alszo_04,0,3,3,3,,,,,,,,,,,56.57121491013095,None,57.567451388202606,60.56994693633169,u,3.9068980016745627,57.56718208780512,None,60.552698511164635,None,929249,2022_Mar_25_1613,alszo_teszt,2021.1.2,59.79740018750101,
zomás,alszo_05,0,4,4,4,,,,,,,,,,,61.51519360486418,None,62.517375595960765,65.52002135990188,u,4.317048821598291,62.516992778051645,None,65.50254465593025,None,929249,2022_Mar_25_1613,alszo_teszt,2021.1.2,59.79740018750101,
galonc,alszo_06,0,5,5,5,,,,,,,,,,,66.86209128331393,None,67.86722597070039,70.86964905401692,u,3.687226586509496,67.86721604969352,None,70.85231199208647,None,929249,2022_Mar_25_1613,alszo_teszt,2021.1.2,59.79740018750101,
Gabam,alszo_07,0,6,6,6,,,,,,,,,,,71.57741793664172,None,72.58182642385364,75.58748584147543,u,3.7398081584833562,72.58229265362024,None,75.55347478343174,None,929249,2022_Mar_25_1613,alszo_teszt,2021.1.2,59.79740018750101,
ardul,alszo_08,0,7,7,7,,,,,,,,,,,76.36209625937045,None,77.36718149678782,80.3695461107418,u,3.9793298803269863,77.36661705095321,None,80.35219754185528,None,929249,2022_Mar_25_1613,alszo_teszt,2021.1.2,59.79740018750101,
tarembik,alszo_09,0,8,8,8,,,,,,,,,,,81.37541138427332,None,82.3838026217185,85.38635726086795,u,3.7464972883462906,82.38369846576825,None,85.3687545992434,None,929249,2022_Mar_25_1613,alszo_teszt,2021.1.2,59.79740018750101,
cselika,alszo_10,0,9,9,9,,,,,,,,,,,86.16560105467215,None,87.16702170167119,90.16944976104423,u,3.538954507559538,87.16681553516537,None,90.15230085793883,None,929249,2022_Mar_25_1613,alszo_teszt,2021.1.2,59.79740018750101,
hübedin,alszo_11,0,10,10,10,,,,,,,,,,,90.74539041612297,None,91.75039416979999,94.75245524151251,u,3.515772388316691,91.74996843282133,None,94.73456427687779,None,929249,2022_Mar_25_1613,alszo_teszt,2021.1.2,59.79740018750101,
vazóga,alszo_12,0,11,11,11,,,,,,,,,,,95.28846296202391,None,96.29140847418458,99.30342642171308,u,3.9028228824026883,96.29125082492828,None,99.26803573872894,None,929249,2022_Mar_25_1613,alszo_teszt,2021.1.2,59.79740018750101,
tipebanér,alszo_13,0,12,12,12,,,,,,,,,,,100.22800545906648,None,101.23356249378995,104.23563818261027,u,5.600553716067225,101.23307642154396,None,104.21800006600097,None,929249,2022_Mar_25_1613,alszo_teszt,2021.1.2,59.79740018750101,
limefürék,alszo_14,0,13,13,13,,,,,,,,,,,106.86240571085364,None,107.86481100469828,110.87105853576213,u,3.8646371830254793,107.8650166108273,None,110.83558605797589,None,929249,2022_Mar_25_1613,alszo_teszt,2021.1.2,59.79740018750101,
serkápanta,alszo_15,0,14,14,14,,,,,,,,,,,111.75466867536306,None,112.76909966124222,115.78569811349735,u,4.3367769019678235,112.76893268153071,None,115.7500334335491,None,929249,2022_Mar_25_1613,alszo_teszt,2021.1.2,59.79740018750101,
berszidelén,alszo_16,0,15,15,15,,,,,,,,,,,117.13702608039603,None,118.1466327319853,121.15294153150171,u,4.20800275914371,118.14595196954906,None,121.11757448455319,None,929249,2022_Mar_25_1613,alszo_teszt,2021.1.2,59.79740018750101,
hápamarogány,alszo_17,0,16,16,16,,,,,,,,,,,122.37768795248121,None,123.37807294735686,126.38615355174989,u,5.215954575687647,123.37742763990536,None,126.34970109164715,None,929249,2022_Mar_25_1613,alszo_teszt,2021.1.2,59.79740018750101,
gyilonitora,alszo_18,0,17,17,17,,,,,,,,,,,128.62356167240068,None,129.633321338892,132.63477470399812,u,4.032723802141845,129.63299543503672,None,132.61601136578247,None,929249,2022_Mar_25_1613,alszo_teszt,2021.1.2,59.79740018750101,
tesilbengecsék,alszo_19,0,18,18,18,,,,,,,,,,,133.70069379359484,None,134.70003007454798,137.70253712963313,u,5.637780271004885,134.69955550972372,None,137.6848508073017,None,929249,2022_Mar_25_1613,alszo_teszt,2021.1.2,59.79740018750101,
fortiklempelesz,alszo_20,0,19,19,19,,,,,,,,,,,140.3824311136268,None,141.38744450882078,144.40272553730756,u,5.269519239664078,141.38770236447453,None,144.36830612784252,None,929249,2022_Mar_25_1613,alszo_teszt,2021.1.2,59.79740018750101,
abalamofálsag,alszo_21,0,20,20,20,,,,,,,,,,,146.68833656888455,None,147.6831029193476,150.685787870083,u,7.998178745619953,147.68288617860526,None,150.66844800906256,None,929249,2022_Mar_25_1613,alszo_teszt,2021.1.2,59.79740018750101,
sémernyegvőterec,alszo_22,0,21,21,21,,,,,,,,,,,155.7043823315762,None,156.7083703382872,159.7196067259647,u,6.492123447358608,156.70887731015682,None,159.68501688493416,None,929249,2022_Mar_25_1613,alszo_teszt,2021.1.2,59.79740018750101,
hulukatánatalm,alszo_23,0,22,22,22,,,,,,,,,,,163.23506095446646,None,164.248618011456,167.253899556119,u,6.823661754373461,164.24920833297074,None,167.2187810037285,None,929249,2022_Mar_25_1613,alszo_teszt,2021.1.2,59.79740018750101,
innécsésziderszil,alszo_24,0,23,23,23,,,,,,,,,,,171.10712404130027,None,172.11610028250144,175.11812838725746,u,6.717354105319828,172.11586519237608,None,175.10029091592878,None,929249,2022_Mar_25_1613,alszo_teszt,2021.1.2,59.79740018750101,
dögeliztetmereni,alszo_25,0,24,24,24,,,,,,,,,,,178.87066666781902,None,179.88271067766473,182.884417201858,u,7.558479189872742,179.8821384566836,None,182.8667464298196,None,929249,2022_Mar_25_1613,alszo_teszt,2021.1.2,59.79740018750101,
kusztenirselemenég,alszo_26,0,25,25,25,,,,,,,,,,,187.47443463699892,None,188.48547876076773,191.50221841037273,u,8.154926064424217,188.48567130463198,None,191.46730916481465,None,929249,2022_Mar_25_1613,alszo_teszt,2021.1.2,59.79740018750101,
intogszocolarásu,alszo_27,0,26,26,26,,,,,,,,,,,196.676007646136,None,197.68248339425773,200.68452487234026,u,8.542123664636165,197.6824650755152,None,200.6668948419392,None,929249,2022_Mar_25_1613,alszo_teszt,2021.1.2,59.79740018750101,
,,,,,,,,,,,,,,,,206.25187863549218,None,,,,,,,,,,,,,,
