szo,hangfajl,hangok.thisRepN,hangok.thisTrialN,hangok.thisN,hangok.thisIndex,inst_text.started,inst_text.stopped,space_inst.started,space_inst.stopped,key_resp.keys,key_resp.rt,key_resp.started,key_resp.stopped,text.started,text.stopped,fx_cross.started,fx_cross.stopped,sound_1.started,sound_1.stopped,key_resp_2.keys,key_resp_2.rt,key_resp_2.started,key_resp_2.stopped,text_2.started,text_2.stopped,Résztvevő kódja,Nem,date,expName,psychopyVersion,frameRate,
,,,,,,48.87195143570716,None,56.848455510204076,None,space,20.90417140693171,56.848455510204076,None,,,,,,,,,,,,,pilot2,férfi,2022_Feb_09_1726,alszo_teszt,2021.1.2,60.00160483512009,
gáv,alszo_01,0,0,0,0,,,,,,,,,77.78525150791393,None,83.8184191162145,None,84.83621852069045,87.83874028649007,u,5.407809561962495,84.8410554195143,None,87.82154535441077,None,pilot2,férfi,2022_Feb_09_1726,alszo_teszt,2021.1.2,60.00160483512009,
gyem,alszo_02,0,1,1,1,,,,,,,,,,,90.28092851638212,None,91.2964955778065,94.3049823876936,u,4.377117877098499,91.31124326126883,None,94.3049823876936,None,pilot2,férfi,2022_Feb_09_1726,alszo_teszt,2021.1.2,60.00160483512009,
Szan,alszo_03,0,2,2,2,,,,,,,,,,,95.71670223545516,None,96.71959580962285,99.7212712331966,u,3.88681568444008,96.72990353197383,None,99.7212712331966,None,pilot2,férfi,2022_Feb_09_1726,alszo_teszt,2021.1.2,60.00160483512009,
dolk,alszo_04,0,3,3,3,,,,,,,,,,,100.65067304935656,None,101.6527735567317,104.66390482452698,u,4.721450683995499,101.65492015528434,None,104.64444731952972,None,pilot2,férfi,2022_Feb_09_1726,alszo_teszt,2021.1.2,60.00160483512009,
zomás,alszo_05,0,4,4,4,,,,,,,,,,,106.40254453147645,None,107.41972789411957,110.42225208577293,u,4.898547474833322,107.4296251188789,None,110.40478160184284,None,pilot2,férfi,2022_Feb_09_1726,alszo_teszt,2021.1.2,60.00160483512009,
galonc,alszo_06,0,5,5,5,,,,,,,,,,,112.35364372206095,None,113.37357451687276,116.3885483021295,u,5.12992331199348,113.39017890965624,None,116.37094937248912,None,pilot2,férfi,2022_Feb_09_1726,alszo_teszt,2021.1.2,60.00160483512009,
Gabam,alszo_07,0,6,6,6,,,,,,,,,,,118.5620361725596,None,119.58921342080285,122.6051357761462,u,4.475232057564426,119.59697807341581,None,122.58744012346142,None,pilot2,férfi,2022_Feb_09_1726,alszo_teszt,2021.1.2,60.00160483512009,
ardul,alszo_08,0,7,7,7,,,,,,,,,,,124.10775351857592,None,125.13570828328957,128.14356841491826,u,5.192922049929621,125.15105869752006,None,128.14356841491826,None,pilot2,férfi,2022_Feb_09_1726,alszo_teszt,2021.1.2,60.00160483512009,
tarembik,alszo_09,0,8,8,8,,,,,,,,,,,130.36691841612628,None,131.3934963546984,134.4046469360037,u,4.949887508919346,131.41007866601285,None,134.4046469360037,None,pilot2,férfi,2022_Feb_09_1726,alszo_teszt,2021.1.2,60.00160483512009,
cselika,alszo_10,0,9,9,9,,,,,,,,,,,136.38539220730308,None,137.3857448576702,140.38805380165286,u,4.554734359946451,137.38908789855486,None,140.37046886731696,None,pilot2,férfi,2022_Feb_09_1726,alszo_teszt,2021.1.2,60.00160483512009,
hübedin,alszo_11,0,10,10,10,,,,,,,,,,,141.98548065757495,None,143.00345988605693,146.0037239928497,u,4.267685233964585,143.02012554714747,None,146.0037239928497,None,pilot2,férfi,2022_Feb_09_1726,alszo_teszt,2021.1.2,60.00160483512009,
vazóga,alszo_12,0,11,11,11,,,,,,,,,,,147.31729047330737,None,148.33600087828233,151.3379836074746,u,5.030850609240588,148.33688855328364,None,151.3203535771754,None,pilot2,férfi,2022_Feb_09_1726,alszo_teszt,2021.1.2,60.00160483512009,
tipebanér,alszo_13,0,12,12,12,,,,,,,,,,,153.39480451059353,None,154.4222650858486,157.44451984626357,u,4.84882405299868,154.438857971385,None,157.41970027673233,None,pilot2,férfi,2022_Feb_09_1726,alszo_teszt,2021.1.2,60.00160483512009,
limefürék,alszo_14,0,13,13,13,,,,,,,,,,,159.32081946503604,None,160.32318526102898,163.32346519806015,u,4.6396500429545995,160.32828859917936,None,163.30583392373228,None,pilot2,férfi,2022_Feb_09_1726,alszo_teszt,2021.1.2,60.00160483512009,
serkápanta,alszo_15,0,14,14,14,,,,,,,,,,,164.9940302285977,None,166.01868707947722,169.02185723181174,u,5.215875890949974,166.02410021130345,None,169.00432516858564,None,pilot2,férfi,2022_Feb_09_1726,alszo_teszt,2021.1.2,60.00160483512009,
berszidelén,alszo_16,0,15,15,15,,,,,,,,,,,171.2767122001096,None,172.30203864817156,175.30338816794392,u,5.058971513673896,172.30889827161445,None,175.30338816794392,None,pilot2,férfi,2022_Feb_09_1726,alszo_teszt,2021.1.2,60.00160483512009,
hápamarogány,alszo_17,0,16,16,16,,,,,,,,,,,177.40623804568895,None,178.43531426903937,181.43795605227933,u,5.044505664365715,178.4509862951818,None,181.43795605227933,None,pilot2,férfi,2022_Feb_09_1726,alszo_teszt,2021.1.2,60.00160483512009,
gyilonitora,alszo_18,0,17,17,17,,,,,,,,,,,183.5198210716917,None,184.55498898103687,187.57147646644444,u,4.793419784866273,184.55824002617737,None,187.53680669634196,None,pilot2,férfi,2022_Feb_09_1726,alszo_teszt,2021.1.2,60.00160483512009,
tesilbengecsék,alszo_19,0,18,18,18,,,,,,,,,,,189.37470633203338,None,190.40495508132733,193.4209439920669,u,5.473786809961894,190.42160550308472,None,193.4030645344901,None,pilot2,férfi,2022_Feb_09_1726,alszo_teszt,2021.1.2,60.00160483512009,
fortiklempelsz,alszo_20,0,19,19,19,,,,,,,,,,,195.92419369987329,None,196.93494236736586,199.93836906903016,u,5.596982116490835,196.93825399658817,None,199.9205841574585,None,pilot2,férfi,2022_Feb_09_1726,alszo_teszt,2021.1.2,60.00160483512009,
abalamofálsag,alszo_21,0,20,20,20,,,,,,,,,,,202.5565378871397,None,203.56262923101457,206.57065478705044,u,10.774641207259265,203.56844415224623,None,206.55326640886778,None,pilot2,férfi,2022_Feb_09_1726,alszo_teszt,2021.1.2,60.00160483512009,
sémernyegvőterec,alszo_22,0,21,21,21,,,,,,,,,,,214.37279146448418,None,215.40143324275266,218.40457260541734,u,7.576572620338993,215.40629527089186,None,218.38679080391012,None,pilot2,férfi,2022_Feb_09_1726,alszo_teszt,2021.1.2,60.00160483512009,
hulukatánatalm,alszo_23,0,22,22,22,,,,,,,,,,,223.02086978590523,None,224.02252773090294,227.03807560321002,u,13.018043980075163,224.0287982767768,None,227.02023439944605,None,pilot2,férfi,2022_Feb_09_1726,alszo_teszt,2021.1.2,60.00160483512009,
innécsésziderszil,alszo_24,0,23,23,23,,,,,,,,,,,237.07939998121583,None,238.10893030529257,241.12074084256892,u,8.123423274373636,238.12329980474897,None,241.10322775074746,None,pilot2,férfi,2022_Feb_09_1726,alszo_teszt,2021.1.2,60.00160483512009,
dögeliztetmereni,alszo_25,0,24,24,24,,,,,,,,,,,246.2840152567369,None,247.3210831053162,250.3370589848928,u,6.868833283675485,247.32966635836056,None,250.31948493578238,None,pilot2,férfi,2022_Feb_09_1726,alszo_teszt,2021.1.2,60.00160483512009,
kusztenirselemenég,alszo_26,0,25,25,25,,,,,,,,,,,254.23994095851958,None,255.271173421634,258.28767300519394,u,11.103013156200177,255.2878011399007,None,258.2700927359401,None,pilot2,férfi,2022_Feb_09_1726,alszo_teszt,2021.1.2,60.00160483512009,
intogszocolarásu,alszo_27,0,26,26,26,,,,,,,,,,,266.42353965302755,None,267.4468560655281,270.4529142250103,u,8.851948425144656,267.4584893290594,None,270.4529142250103,None,pilot2,férfi,2022_Feb_09_1726,alszo_teszt,2021.1.2,60.00160483512009,
töminégeveltemérg,alszo_28,0,27,27,27,,,,,,,,,,,276.33753669100406,None,277.33816582623257,280.35315233164874,u,7.909019688595436,277.34519398414704,None,280.33551421518496,None,pilot2,férfi,2022_Feb_09_1726,alszo_teszt,2021.1.2,60.00160483512009,
igyótanumazálubirc,alszo_29,0,28,28,28,,,,,,,,,,,285.2741087639879,None,286.2840046514131,289.28741362570145,u,14.510711066788645,286.29546185411164,None,289.26961502982886,None,pilot2,férfi,2022_Feb_09_1726,alszo_teszt,2021.1.2,60.00160483512009,
polankilimapszilógis,alszo_30,0,29,29,29,,,,,,,,,,,300.8408968061558,None,301.8663865326729,304.86980891133135,u,12.017325865861494,301.8767092144408,None,304.85215928762045,None,pilot2,férfi,2022_Feb_09_1726,alszo_teszt,2021.1.2,60.00160483512009,
elüsekéketésenim,alszo_31,0,30,30,30,,,,,,,,,,,313.9192151064635,None,314.93356056510964,317.9366062837071,u,11.147242024700972,314.9384639260388,None,317.9186540505907,None,pilot2,férfi,2022_Feb_09_1726,alszo_teszt,2021.1.2,60.00160483512009,
,,,,,,,,,,,,,,,,326.12399645950063,None,,,,,,,,,,,,,,,
