szo,hangfajl,hangok.thisRepN,hangok.thisTrialN,hangok.thisN,hangok.thisIndex,inst_text.started,inst_text.stopped,space_inst.started,space_inst.stopped,key_resp.keys,key_resp.rt,key_resp.started,key_resp.stopped,text.started,text.stopped,fx_cross.started,fx_cross.stopped,sound_1.started,sound_1.stopped,key_resp_2.keys,key_resp_2.rt,key_resp_2.started,key_resp_2.stopped,text_2.started,text_2.stopped,kosznojuk.started,kosznojuk.stopped,key_resp_3.keys,key_resp_3.rt,key_resp_3.started,key_resp_3.stopped,Résztvevő kódja,Nem,date,expName,psychopyVersion,frameRate,
,,,,,,13.898187640239485,None,21.866858391906135,None,space,10.798606441705488,21.866858391906135,None,,,,,,,,,,,,,,,,,,,pilot3,nő,2022_Feb_17_1105,alszo_teszt,2021.1.2,59.845703142357515,
gáv,alszo_01,0,0,0,0,,,,,,,,,32.706234064884484,None,38.73932858661283,None,39.74987363811815,42.75252552900929,u,6.335862853564322,39.75362711434718,None,42.73507868160959,None,,,,,,,pilot3,nő,2022_Feb_17_1105,alszo_teszt,2021.1.2,59.845703142357515,
gyem,alszo_02,0,1,1,1,,,,,,,,,,,46.11572866048664,None,47.11649945924292,50.11884028138593,u,5.084682738990523,47.11662062734831,None,50.101315060281195,None,,,,,,,pilot3,nő,2022_Feb_17_1105,alszo_teszt,2021.1.2,59.845703142357515,
Szan,alszo_03,0,2,2,2,,,,,,,,,,,52.22340131737292,None,53.27038638837403,56.284492962877266,u,12.978010279359296,53.2870908009354,None,56.284492962877266,None,,,,,,,pilot3,nő,2022_Feb_17_1105,alszo_teszt,2021.1.2,59.845703142357515,
dolk,alszo_04,0,3,3,3,,,,,,,,,,,66.29691798693966,None,67.29344199072803,70.30307094124146,u,5.753975752624683,67.29502955498174,None,70.2673729833914,None,,,,,,,pilot3,nő,2022_Feb_17_1105,alszo_teszt,2021.1.2,59.845703142357515,
zomás,alszo_05,0,4,4,4,,,,,,,,,,,73.0919969920069,None,74.10287208365044,77.11957114678808,u,5.457373748417012,74.10356674797367,None,77.0844015891198,None,,,,,,,pilot3,nő,2022_Feb_17_1105,alszo_teszt,2021.1.2,59.845703142357515,
galonc,alszo_06,0,5,5,5,,,,,,,,,,,79.60093780932948,None,80.61616917023203,83.61827642645221,u,5.805433347239159,80.61947473476175,None,83.60046974441502,None,,,,,,,pilot3,nő,2022_Feb_17_1105,alszo_teszt,2021.1.2,59.845703142357515,
Gabam,alszo_07,0,6,6,6,,,,,,,,,,,86.44794993789401,None,87.4494065061328,90.45069954718929,u,4.857838578871451,87.45495131821372,None,90.45069954718929,None,,,,,,,pilot3,nő,2022_Feb_17_1105,alszo_teszt,2021.1.2,59.845703142357515,
ardul,alszo_08,0,7,7,7,,,,,,,,,,,92.34911049006041,None,93.34926767285215,96.35060643171892,u,4.579221463412978,93.34956176066771,None,96.33285915199667,None,,,,,,,pilot3,nő,2022_Feb_17_1105,alszo_teszt,2021.1.2,59.845703142357515,
tarembik,alszo_09,0,8,8,8,,,,,,,,,,,97.95184094132856,None,98.96575394527754,101.96876001055352,u,8.771084535866976,98.96574760077056,None,101.95136323524639,None,,,,,,,pilot3,nő,2022_Feb_17_1105,alszo_teszt,2021.1.2,59.845703142357515,
cselika,alszo_10,0,9,9,9,,,,,,,,,,,107.76109500450548,None,108.76561467651045,111.77765081799589,u,5.8829259250778705,108.7656867057085,None,111.7584968553856,None,,,,,,,pilot3,nő,2022_Feb_17_1105,alszo_teszt,2021.1.2,59.845703142357515,
hübedin,alszo_11,0,10,10,10,,,,,,,,,,,114.67978730879258,None,115.68241388384486,118.69684415403754,u,7.632872587419115,115.68778080004267,None,118.67746004660148,None,,,,,,,pilot3,nő,2022_Feb_17_1105,alszo_teszt,2021.1.2,59.845703142357515,
vazóga,alszo_12,0,11,11,11,,,,,,,,,,,123.34759682102595,None,124.36537576126867,127.368249213323,u,5.8858039799379185,124.36266820016317,None,127.3508309784811,None,,,,,,,pilot3,nő,2022_Feb_17_1105,alszo_teszt,2021.1.2,59.845703142357515,
tipebanér,alszo_13,0,12,12,12,,,,,,,,,,,130.27372156083584,None,131.28223113644634,134.2845455229981,u,5.702122557791881,131.28227144281846,None,134.2668265447719,None,,,,,,,pilot3,nő,2022_Feb_17_1105,alszo_teszt,2021.1.2,59.845703142357515,
limefürék,alszo_14,0,13,13,13,,,,,,,,,,,137.01506671402603,None,138.0151567193563,141.01751122577116,u,5.75237095868215,138.01589305850212,None,140.9995201168349,None,,,,,,,pilot3,nő,2022_Feb_17_1105,alszo_teszt,2021.1.2,59.845703142357515,
serkápanta,alszo_15,0,14,14,14,,,,,,,,,,,143.79599709645845,None,144.79856053715338,147.80159863608424,u,6.680969755863771,144.79920855048113,None,147.78390889253933,None,,,,,,,pilot3,nő,2022_Feb_17_1105,alszo_teszt,2021.1.2,59.845703142357515,
berszidelén,alszo_16,0,15,15,15,,,,,,,,,,,151.511869877344,None,152.53175961934028,155.53462405211758,u,6.75883554155007,152.5294090937823,None,155.51710940524936,None,,,,,,,pilot3,nő,2022_Feb_17_1105,alszo_teszt,2021.1.2,59.845703142357515,
hápamarogány,alszo_17,0,16,16,16,,,,,,,,,,,159.31710853450932,None,160.33188750522675,163.33391377527732,u,6.138908292166889,160.33303704776336,None,163.31598891073372,None,,,,,,,pilot3,nő,2022_Feb_17_1105,alszo_teszt,2021.1.2,59.845703142357515,
gyilonitora,alszo_18,0,17,17,17,,,,,,,,,,,166.50465545756742,None,167.51475054478504,170.5174107706407,u,4.764724451233633,167.5151976478519,None,170.49976798915304,None,,,,,,,pilot3,nő,2022_Feb_17_1105,alszo_teszt,2021.1.2,59.845703142357515,
tesilbengecsék,alszo_19,0,18,18,18,,,,,,,,,,,172.30660522007383,None,173.31632772133452,176.31747863232158,u,5.4912728442577645,173.31686812639236,None,176.299888099893,None,,,,,,,pilot3,nő,2022_Feb_17_1105,alszo_teszt,2021.1.2,59.845703142357515,
fortiklempelesz,alszo_20,0,19,19,19,,,,,,,,,,,178.84129800472874,None,179.86889044670386,182.88498727674596,u,12.314441030961461,179.86928020021878,None,182.84909245173912,None,,,,,,,pilot3,nő,2022_Feb_17_1105,alszo_teszt,2021.1.2,59.845703142357515,
abalamofálsag,alszo_21,0,20,20,20,,,,,,,,,,,192.20273275265936,None,193.22276338059453,196.2337789851008,u,7.344764795037918,193.222923300229,None,196.19913067447487,None,,,,,,,pilot3,nő,2022_Feb_17_1105,alszo_teszt,2021.1.2,59.845703142357515,
sémernyegvőterec,alszo_22,0,21,21,21,,,,,,,,,,,200.6036488537211,None,201.61742669423109,204.63396888563875,u,7.246164200361818,201.62539132405072,None,204.61640292278025,None,,,,,,,pilot3,nő,2022_Feb_17_1105,alszo_teszt,2021.1.2,59.845703142357515,
hulukatánatalm,alszo_23,0,22,22,22,,,,,,,,,,,208.90081999998074,None,209.96446519619784,212.9680627337657,u,6.8784328129841015,209.96143642743118,None,212.93327073811088,None,,,,,,,pilot3,nő,2022_Feb_17_1105,alszo_teszt,2021.1.2,59.845703142357515,
innécsésziderszil,alszo_24,0,23,23,23,,,,,,,,,,,216.8763008628739,None,217.89762092402668,220.92227354529314,u,7.084523192606866,217.89877544273622,None,220.87815695011523,None,,,,,,,pilot3,nő,2022_Feb_17_1105,alszo_teszt,2021.1.2,59.845703142357515,
dögeliztetmereni,alszo_25,0,24,24,24,,,,,,,,,,,225.02741865161806,None,226.03107683545676,229.03349727531895,u,6.368235217989422,226.03897254623007,None,229.01587035506964,None,,,,,,,pilot3,nő,2022_Feb_17_1105,alszo_teszt,2021.1.2,59.845703142357515,
kusztenirselemenég,alszo_26,0,25,25,25,,,,,,,,,,,232.44623255950864,None,233.44731996300396,236.45072225062177,u,6.742628677398898,233.45669606514275,None,236.43298212403897,None,,,,,,,pilot3,nő,2022_Feb_17_1105,alszo_teszt,2021.1.2,59.845703142357515,
intogszocolarásu,alszo_27,0,26,26,26,,,,,,,,,,,240.22224841592833,None,241.2474560594186,244.25042747857515,u,6.931379196117632,241.25174085935578,None,244.23265376326162,None,,,,,,,pilot3,nő,2022_Feb_17_1105,alszo_teszt,2021.1.2,59.845703142357515,
töminégeveltemérg,alszo_28,0,27,27,27,,,,,,,,,,,248.20871714141686,None,249.24761728531448,252.25025797996204,u,7.1104231991339475,249.2486273724353,None,252.23254304483999,None,,,,,,,pilot3,nő,2022_Feb_17_1105,alszo_teszt,2021.1.2,59.845703142357515,
igyótanumazálubirc,alszo_29,0,28,28,28,,,,,,,,,,,256.3869195606094,None,257.39733996066497,260.39843644551,u,6.988709527882747,257.4021364909131,None,260.39843644551,None,,,,,,,pilot3,nő,2022_Feb_17_1105,alszo_teszt,2021.1.2,59.845703142357515,
polankilimapszilógis,alszo_30,0,29,29,29,,,,,,,,,,,264.43209731020033,None,265.4304836215335,268.43309159833007,u,6.5898622426902875,265.43289348715916,None,268.4161781271687,None,,,,,,,pilot3,nő,2022_Feb_17_1105,alszo_teszt,2021.1.2,59.845703142357515,
elüsekéketésenim,alszo_31,0,30,30,30,,,,,,,,,,,272.05882627365645,None,273.06365664127514,276.07203596737236,u,10.411114629008807,273.0676041234983,None,276.0472176418407,None,,,,,,,pilot3,nő,2022_Feb_17_1105,alszo_teszt,2021.1.2,59.845703142357515,
réfjenólpáulatamú,alszo_32,0,31,31,31,,,,,,,,,,,283.51302619988564,None,284.5246602720348,287.5345158218406,u,8.30300687381532,284.53601487365086,None,287.5175886664074,None,,,,,,,pilot3,nő,2022_Feb_17_1105,alszo_teszt,2021.1.2,59.845703142357515,
vanatyfovagyatázólarka,alszo_33,0,32,32,32,,,,,,,,,,,292.87524748349097,None,293.8844170151162,296.8989580036141,u,8.592518238932826,293.8939915393712,None,296.88128785346635,None,,,,,,,pilot3,nő,2022_Feb_17_1105,alszo_teszt,2021.1.2,59.845703142357515,
ladatobanrapolsazridant,alszo_34,0,33,33,33,,,,,,,,,,,302.5186190312961,None,303.53010164326986,306.5309734569164,u,8.196226183907129,303.53836670541205,None,306.5309734569164,None,,,,,,,pilot3,nő,2022_Feb_17_1105,alszo_teszt,2021.1.2,59.845703142357515,
ninolamebefalintelék,alszo_35,0,34,34,34,,,,,,,,,,,311.75843527610414,None,312.7632930123829,315.7657893378055,u,12.102517411694862,312.76765817636624,None,315.747910191305,None,,,,,,,pilot3,nő,2022_Feb_17_1105,alszo_teszt,2021.1.2,59.845703142357515,
szikunblómitílaradiga,alszo_36,0,35,35,35,,,,,,,,,,,324.9126031064661,None,325.93302653576245,328.9498265516013,u,11.461931861005723,325.93619731010403,None,328.9152709209593,None,,,,,,,pilot3,nő,2022_Feb_17_1105,alszo_teszt,2021.1.2,59.845703142357515,
,,,,,,,,,,,,,,,,,,,,,,,,,,337.4348913934082,None,space,1.7871063511120155,337.4348913934082,None,pilot3,nő,2022_Feb_17_1105,alszo_teszt,2021.1.2,59.845703142357515,
